File: GV008_GSO_Wide.csv
[Measurement conditions]
Sample identification,
Comment - 1,"Configuration=Main Configuration, Owner=User-1, Creation date=6/17/2015 3:36:16 PM"
Comment - 2,"Goniometer=HR HD (Theta/2Theta); Minimum step size 2Theta:0.0001; Minimum step size Omega:0.0001"
Comment - 3,"Sample stage=MRD Cradle; Minimum step size Phi:0.01; Minimum step size Chi:0.01; Minimum step size X:0.01; Minimum step size Y:0.01; Minimum step size Z:0.001"
Comment - 4,"Diffractometer system=XPERT-3"
Comment - 5,"Measurement program=C:\PANalytical\Data Collector\Programs\Velarde\2theta-omega 15to55_33 min.xrdmp, Identifier={D54B214C-4725-4EA5-8A69-2F42546C41BB}"
Anode material,Cu
K-Alpha1 wavelength,1.5406
K-Alpha2 wavelength,1.54443
Ratio K-Alpha2/K-Alpha1,0.500
Divergence slit,Fixed,0.76mm
Receiving slit,0.38
Monochromator used,YES
Generator voltage, 45
Tube current, 40
File date and time,12/Oct/2016 10:33
Unit cell,
h k l, 0 0 0
Scan axis,2Theta-Omega
Scan range,15.00000,55.00000
Scan step size,0.0100000
Omega offset,0.1513
No. of points, 4000
Scan type,CONTINUOUS
Phi,0.00
Psi,0.97
X,0.00
Y,0.00
Z,8.310
Time per step,0.440
[Scan points]
Angle,Intensity
15.00500,37.0
15.03500,42.0
15.06500,35.0
15.09500,46.0
15.12500,43.0
15.15500,52.0
15.18500,45.0
15.21500,37.0
15.24500,44.0
15.27500,45.0
15.30500,44.0
15.33500,49.0
15.36500,46.0
15.39500,41.0
15.42500,51.0
15.45500,57.0
15.48500,46.0
15.51500,51.0
15.54500,47.0
15.57500,34.0
15.60500,40.0
15.63500,47.0
15.66500,43.0
15.69500,43.0
15.72500,42.0
15.75500,44.0
15.78500,46.0
15.81500,49.0
15.84500,46.0
15.87500,55.0
15.90500,47.0
15.93500,37.0
15.96500,44.0
15.99500,53.0
16.02500,45.0
16.05500,52.0
16.08500,42.0
16.11500,31.0
16.14500,51.0
16.17500,50.0
16.20500,39.0
16.23500,45.0
16.26500,42.0
16.29500,39.0
16.32500,44.0
16.35500,49.0
16.38500,53.0
16.41500,70.0
16.44500,50.0
16.47500,36.0
16.50500,44.0
16.53500,44.0
16.56500,60.0
16.59500,51.0
16.62500,50.0
16.65500,56.0
16.68500,39.0
16.71500,53.0
16.74500,53.0
16.77500,49.0
16.80500,51.0
16.83500,49.0
16.86500,66.0
16.89500,52.0
16.92500,57.0
16.95500,47.0
16.98500,43.0
17.01500,60.0
17.04500,50.0
17.07500,43.0
17.10500,57.0
17.13500,59.0
17.16500,43.0
17.19500,48.0
17.22500,51.0
17.25500,45.0
17.28500,52.0
17.31500,55.0
17.34500,67.0
17.37500,54.0
17.40500,61.0
17.43500,39.0
17.46500,56.0
17.49500,47.0
17.52500,51.0
17.55500,44.0
17.58500,47.0
17.61500,48.0
17.64500,53.0
17.67500,50.0
17.70500,49.0
17.73500,66.0
17.76500,48.0
17.79500,54.0
17.82500,39.0
17.85500,51.0
17.88500,45.0
17.91500,52.0
17.94500,50.0
17.97500,50.0
18.00500,64.0
18.03500,63.0
18.06500,54.0
18.09500,40.0
18.12500,43.0
18.15500,51.0
18.18500,55.0
18.21500,49.0
18.24500,50.0
18.27500,52.0
18.30500,51.0
18.33500,44.0
18.36500,64.0
18.39500,43.0
18.42500,46.0
18.45500,54.0
18.48500,51.0
18.51500,47.0
18.54500,56.0
18.57500,49.0
18.60500,42.0
18.63500,42.0
18.66500,56.0
18.69500,54.0
18.72500,32.0
18.75500,28.0
18.78500,50.0
18.81500,40.0
18.84500,52.0
18.87500,50.0
18.90500,48.0
18.93500,47.0
18.96500,55.0
18.99500,49.0
19.02500,58.0
19.05500,53.0
19.08500,52.0
19.11500,50.0
19.14500,40.0
19.17500,54.0
19.20500,57.0
19.23500,49.0
19.26500,46.0
19.29500,54.0
19.32500,42.0
19.35500,53.0
19.38500,55.0
19.41500,56.0
19.44500,49.0
19.47500,62.0
19.50500,48.0
19.53500,38.0
19.56500,48.0
19.59500,46.0
19.62500,63.0
19.65500,46.0
19.68500,58.0
19.71500,71.0
19.74500,65.0
19.77500,48.0
19.80500,55.0
19.83500,50.0
19.86500,53.0
19.89500,53.0
19.92500,65.0
19.95500,65.0
19.98500,67.0
20.01500,68.0
20.04500,77.0
20.07500,59.0
20.10500,68.0
20.13500,53.0
20.16500,57.0
20.19500,60.0
20.22500,85.0
20.25500,80.0
20.28500,89.0
20.31500,120.0
20.34500,102.0
20.37500,98.0
20.40500,81.0
20.43500,63.0
20.46500,66.0
20.49500,95.0
20.52500,139.0
20.55500,141.0
20.58500,159.0
20.61500,167.0
20.64500,184.0
20.67500,146.0
20.70500,116.0
20.73500,118.0
20.76500,157.0
20.79500,197.0
20.82500,231.0
20.85500,308.0
20.88500,361.0
20.91500,330.0
20.94500,365.0
20.97500,333.0
21.00500,348.0
21.03500,397.0
21.06500,618.0
21.09500,811.0
21.12500,1016.0
21.15500,1321.0
21.18500,1488.0
21.21500,1785.0
21.24500,2120.0
21.27500,2609.0
21.30500,3565.0
21.33500,5931.0
21.36500,8098.0
21.39500,11474.0
21.42500,14011.0
21.45500,20507.0
21.48500,32732.0
21.51500,28592.0
21.54500,11859.0
21.57500,3483.0
21.60500,1503.0
21.63500,746.0
21.66500,338.0
21.69500,216.0
21.72500,115.0
21.75500,99.0
21.78500,128.0
21.81500,197.0
21.84500,269.0
21.87500,390.0
21.90500,535.0
21.93500,511.0
21.96500,529.0
21.99500,492.0
22.02500,367.0
22.05500,249.0
22.08500,145.0
22.11500,77.0
22.14500,77.0
22.17500,128.0
22.20500,227.0
22.23500,397.0
22.26500,534.0
22.29500,837.0
22.32500,2237.0
22.35500,7882.0
22.38500,218265.0
22.41500,79652.0
22.44500,3780.0
22.47500,1255.0
22.50500,654.0
22.53500,339.0
22.56500,240.0
22.59500,196.0
22.62500,175.0
22.65500,177.0
22.68500,146.0
22.71500,128.0
22.74500,114.0
22.77500,71.0
22.80500,55.0
22.83500,58.0
22.86500,49.0
22.89500,70.0
22.92500,64.0
22.95500,60.0
22.98500,66.0
23.01500,54.0
23.04500,64.0
23.07500,38.0
23.10500,44.0
23.13500,27.0
23.16500,30.0
23.19500,31.0
23.22500,41.0
23.25500,52.0
23.28500,58.0
23.31500,38.0
23.34500,44.0
23.37500,36.0
23.40500,35.0
23.43500,37.0
23.46500,29.0
23.49500,24.0
23.52500,44.0
23.55500,42.0
23.58500,44.0
23.61500,42.0
23.64500,35.0
23.67500,39.0
23.70500,33.0
23.73500,23.0
23.76500,37.0
23.79500,40.0
23.82500,34.0
23.85500,32.0
23.88500,34.0
23.91500,39.0
23.94500,34.0
23.97500,27.0
24.00500,18.0
24.03500,28.0
24.06500,49.0
24.09500,32.0
24.12500,30.0
24.15500,22.0
24.18500,35.0
24.21500,33.0
24.24500,31.0
24.27500,27.0
24.30500,27.0
24.33500,38.0
24.36500,27.0
24.39500,30.0
24.42500,29.0
24.45500,40.0
24.48500,34.0
24.51500,27.0
24.54500,44.0
24.57500,25.0
24.60500,26.0
24.63500,26.0
24.66500,33.0
24.69500,25.0
24.72500,38.0
24.75500,28.0
24.78500,29.0
24.81500,25.0
24.84500,37.0
24.87500,27.0
24.90500,28.0
24.93500,29.0
24.96500,30.0
24.99500,41.0
25.02500,29.0
25.05500,23.0
25.08500,26.0
25.11500,29.0
25.14500,29.0
25.17500,22.0
25.20500,32.0
25.23500,16.0
25.26500,41.0
25.29500,32.0
25.32500,29.0
25.35500,31.0
25.38500,35.0
25.41500,34.0
25.44500,26.0
25.47500,33.0
25.50500,29.0
25.53500,25.0
25.56500,21.0
25.59500,37.0
25.62500,34.0
25.65500,30.0
25.68500,20.0
25.71500,27.0
25.74500,22.0
25.77500,35.0
25.80500,37.0
25.83500,32.0
25.86500,22.0
25.89500,23.0
25.92500,32.0
25.95500,21.0
25.98500,34.0
26.01500,20.0
26.04500,22.0
26.07500,26.0
26.10500,28.0
26.13500,22.0
26.16500,21.0
26.19500,32.0
26.22500,25.0
26.25500,18.0
26.28500,23.0
26.31500,32.0
26.34500,28.0
26.37500,22.0
26.40500,23.0
26.43500,21.0
26.46500,28.0
26.49500,19.0
26.52500,30.0
26.55500,24.0
26.58500,29.0
26.61500,15.0
26.64500,35.0
26.67500,25.0
26.70500,18.0
26.73500,23.0
26.76500,23.0
26.79500,20.0
26.82500,28.0
26.85500,19.0
26.88500,16.0
26.91500,20.0
26.94500,30.0
26.97500,25.0
27.00500,25.0
27.03500,31.0
27.06500,26.0
27.09500,21.0
27.12500,21.0
27.15500,28.0
27.18500,23.0
27.21500,22.0
27.24500,31.0
27.27500,26.0
27.30500,21.0
27.33500,20.0
27.36500,26.0
27.39500,20.0
27.42500,23.0
27.45500,23.0
27.48500,20.0
27.51500,20.0
27.54500,18.0
27.57500,25.0
27.60500,26.0
27.63500,27.0
27.66500,17.0
27.69500,26.0
27.72500,22.0
27.75500,21.0
27.78500,17.0
27.81500,28.0
27.84500,20.0
27.87500,35.0
27.90500,23.0
27.93500,18.0
27.96500,28.0
27.99500,19.0
28.02500,22.0
28.05500,22.0
28.08500,25.0
28.11500,25.0
28.14500,23.0
28.17500,20.0
28.20500,15.0
28.23500,24.0
28.26500,20.0
28.29500,18.0
28.32500,19.0
28.35500,20.0
28.38500,25.0
28.41500,22.0
28.44500,21.0
28.47500,17.0
28.50500,21.0
28.53500,17.0
28.56500,19.0
28.59500,19.0
28.62500,19.0
28.65500,31.0
28.68500,23.0
28.71500,24.0
28.74500,16.0
28.77500,29.0
28.80500,19.0
28.83500,22.0
28.86500,13.0
28.89500,22.0
28.92500,23.0
28.95500,25.0
28.98500,17.0
29.01500,22.0
29.04500,26.0
29.07500,28.0
29.10500,18.0
29.13500,14.0
29.16500,22.0
29.19500,21.0
29.22500,29.0
29.25500,27.0
29.28500,25.0
29.31500,16.0
29.34500,22.0
29.37500,25.0
29.40500,23.0
29.43500,21.0
29.46500,27.0
29.49500,19.0
29.52500,20.0
29.55500,29.0
29.58500,30.0
29.61500,15.0
29.64500,27.0
29.67500,19.0
29.70500,23.0
29.73500,24.0
29.76500,18.0
29.79500,16.0
29.82500,17.0
29.85500,22.0
29.88500,23.0
29.91500,20.0
29.94500,14.0
29.97500,20.0
30.00500,21.0
30.03500,19.0
30.06500,18.0
30.09500,21.0
30.12500,25.0
30.15500,17.0
30.18500,28.0
30.21500,23.0
30.24500,22.0
30.27500,20.0
30.30500,20.0
30.33500,23.0
30.36500,20.0
30.39500,20.0
30.42500,24.0
30.45500,27.0
30.48500,21.0
30.51500,23.0
30.54500,16.0
30.57500,26.0
30.60500,19.0
30.63500,24.0
30.66500,15.0
30.69500,19.0
30.72500,19.0
30.75500,16.0
30.78500,20.0
30.81500,20.0
30.84500,25.0
30.87500,14.0
30.90500,29.0
30.93500,21.0
30.96500,19.0
30.99500,13.0
31.02500,21.0
31.05500,19.0
31.08500,22.0
31.11500,17.0
31.14500,22.0
31.17500,23.0
31.20500,21.0
31.23500,19.0
31.26500,15.0
31.29500,20.0
31.32500,18.0
31.35500,19.0
31.38500,20.0
31.41500,22.0
31.44500,16.0
31.47500,13.0
31.50500,12.0
31.53500,23.0
31.56500,22.0
31.59500,16.0
31.62500,14.0
31.65500,17.0
31.68500,19.0
31.71500,19.0
31.74500,17.0
31.77500,18.0
31.80500,20.0
31.83500,13.0
31.86500,6.0
31.89500,22.0
31.92500,19.0
31.95500,21.0
31.98500,21.0
32.01500,14.0
32.04500,17.0
32.07500,16.0
32.10500,18.0
32.13500,15.0
32.16500,10.0
32.19500,16.0
32.22500,13.0
32.25500,14.0
32.28500,11.0
32.31500,15.0
32.34500,19.0
32.37500,14.0
32.40500,24.0
32.43500,14.0
32.46500,30.0
32.49500,19.0
32.52500,12.0
32.55500,15.0
32.58500,9.0
32.61500,17.0
32.64500,17.0
32.67500,21.0
32.70500,17.0
32.73500,23.0
32.76500,22.0
32.79500,12.0
32.82500,18.0
32.85500,22.0
32.88500,18.0
32.91500,12.0
32.94500,19.0
32.97500,26.0
33.00500,14.0
33.03500,13.0
33.06500,20.0
33.09500,20.0
33.12500,17.0
33.15500,18.0
33.18500,23.0
33.21500,12.0
33.24500,18.0
33.27500,18.0
33.30500,20.0
33.33500,18.0
33.36500,16.0
33.39500,19.0
33.42500,21.0
33.45500,18.0
33.48500,25.0
33.51500,16.0
33.54500,20.0
33.57500,24.0
33.60500,17.0
33.63500,27.0
33.66500,23.0
33.69500,16.0
33.72500,17.0
33.75500,19.0
33.78500,16.0
33.81500,18.0
33.84500,21.0
33.87500,18.0
33.90500,18.0
33.93500,12.0
33.96500,12.0
33.99500,19.0
34.02500,18.0
34.05500,15.0
34.08500,25.0
34.11500,22.0
34.14500,18.0
34.17500,17.0
34.20500,10.0
34.23500,13.0
34.26500,13.0
34.29500,13.0
34.32500,17.0
34.35500,15.0
34.38500,14.0
34.41500,16.0
34.44500,22.0
34.47500,13.0
34.50500,17.0
34.53500,15.0
34.56500,18.0
34.59500,19.0
34.62500,16.0
34.65500,16.0
34.68500,16.0
34.71500,15.0
34.74500,22.0
34.77500,13.0
34.80500,15.0
34.83500,14.0
34.86500,16.0
34.89500,21.0
34.92500,16.0
34.95500,16.0
34.98500,5.0
35.01500,14.0
35.04500,15.0
35.07500,19.0
35.10500,12.0
35.13500,17.0
35.16500,21.0
35.19500,14.0
35.22500,17.0
35.25500,23.0
35.28500,18.0
35.31500,18.0
35.34500,15.0
35.37500,13.0
35.40500,18.0
35.43500,18.0
35.46500,12.0
35.49500,13.0
35.52500,15.0
35.55500,19.0
35.58500,17.0
35.61500,19.0
35.64500,12.0
35.67500,18.0
35.70500,9.0
35.73500,18.0
35.76500,15.0
35.79500,15.0
35.82500,23.0
35.85500,8.0
35.88500,14.0
35.91500,15.0
35.94500,10.0
35.97500,15.0
36.00500,16.0
36.03500,23.0
36.06500,20.0
36.09500,15.0
36.12500,17.0
36.15500,14.0
36.18500,18.0
36.21500,8.0
36.24500,16.0
36.27500,14.0
36.30500,20.0
36.33500,9.0
36.36500,14.0
36.39500,20.0
36.42500,12.0
36.45500,16.0
36.48500,15.0
36.51500,13.0
36.54500,15.0
36.57500,17.0
36.60500,16.0
36.63500,11.0
36.66500,14.0
36.69500,15.0
36.72500,24.0
36.75500,15.0
36.78500,18.0
36.81500,8.0
36.84500,8.0
36.87500,16.0
36.90500,18.0
36.93500,9.0
36.96500,17.0
36.99500,19.0
37.02500,12.0
37.05500,13.0
37.08500,15.0
37.11500,18.0
37.14500,18.0
37.17500,16.0
37.20500,12.0
37.23500,18.0
37.26500,16.0
37.29500,11.0
37.32500,19.0
37.35500,17.0
37.38500,20.0
37.41500,16.0
37.44500,20.0
37.47500,20.0
37.50500,17.0
37.53500,19.0
37.56500,13.0
37.59500,20.0
37.62500,15.0
37.65500,12.0
37.68500,16.0
37.71500,17.0
37.74500,17.0
37.77500,13.0
37.80500,16.0
37.83500,23.0
37.86500,7.0
37.89500,26.0
37.92500,16.0
37.95500,13.0
37.98500,19.0
38.01500,12.0
38.04500,16.0
38.07500,21.0
38.10500,17.0
38.13500,12.0
38.16500,19.0
38.19500,18.0
38.22500,13.0
38.25500,12.0
38.28500,12.0
38.31500,24.0
38.34500,13.0
38.37500,7.0
38.40500,12.0
38.43500,10.0
38.46500,20.0
38.49500,15.0
38.52500,17.0
38.55500,18.0
38.58500,11.0
38.61500,16.0
38.64500,15.0
38.67500,16.0
38.70500,23.0
38.73500,10.0
38.76500,16.0
38.79500,18.0
38.82500,10.0
38.85500,12.0
38.88500,13.0
38.91500,15.0
38.94500,16.0
38.97500,21.0
39.00500,17.0
39.03500,17.0
39.06500,11.0
39.09500,23.0
39.12500,20.0
39.15500,12.0
39.18500,20.0
39.21500,15.0
39.24500,17.0
39.27500,12.0
39.30500,16.0
39.33500,20.0
39.36500,11.0
39.39500,19.0
39.42500,18.0
39.45500,17.0
39.48500,14.0
39.51500,17.0
39.54500,15.0
39.57500,20.0
39.60500,17.0
39.63500,17.0
39.66500,12.0
39.69500,24.0
39.72500,15.0
39.75500,14.0
39.78500,20.0
39.81500,13.0
39.84500,20.0
39.87500,13.0
39.90500,13.0
39.93500,23.0
39.96500,17.0
39.99500,19.0
40.02500,22.0
40.05500,13.0
40.08500,19.0
40.11500,17.0
40.14500,19.0
40.17500,21.0
40.20500,16.0
40.23500,20.0
40.26500,11.0
40.29500,13.0
40.32500,19.0
40.35500,14.0
40.38500,19.0
40.41500,21.0
40.44500,12.0
40.47500,24.0
40.50500,22.0
40.53500,20.0
40.56500,17.0
40.59500,16.0
40.62500,23.0
40.65500,21.0
40.68500,14.0
40.71500,23.0
40.74500,21.0
40.77500,17.0
40.80500,17.0
40.83500,12.0
40.86500,21.0
40.89500,18.0
40.92500,18.0
40.95500,18.0
40.98500,17.0
41.01500,24.0
41.04500,26.0
41.07500,14.0
41.10500,20.0
41.13500,21.0
41.16500,25.0
41.19500,18.0
41.22500,26.0
41.25500,26.0
41.28500,27.0
41.31500,22.0
41.34500,19.0
41.37500,28.0
41.40500,29.0
41.43500,15.0
41.46500,27.0
41.49500,24.0
41.52500,32.0
41.55500,41.0
41.58500,32.0
41.61500,26.0
41.64500,38.0
41.67500,38.0
41.70500,25.0
41.73500,43.0
41.76500,25.0
41.79500,27.0
41.82500,27.0
41.85500,36.0
41.88500,28.0
41.91500,43.0
41.94500,34.0
41.97500,50.0
42.00500,38.0
42.03500,39.0
42.06500,33.0
42.09500,31.0
42.12500,46.0
42.15500,45.0
42.18500,57.0
42.21500,55.0
42.24500,75.0
42.27500,70.0
42.30500,63.0
42.33500,59.0
42.36500,50.0
42.39500,54.0
42.42500,45.0
42.45500,51.0
42.48500,67.0
42.51500,69.0
42.54500,98.0
42.57500,113.0
42.60500,101.0
42.63500,75.0
42.66500,89.0
42.69500,84.0
42.72500,89.0
42.75500,107.0
42.78500,111.0
42.81500,168.0
42.84500,208.0
42.87500,198.0
42.90500,244.0
42.93500,216.0
42.96500,214.0
42.99500,190.0
43.02500,238.0
43.05500,248.0
43.08500,352.0
43.11500,386.0
43.14500,484.0
43.17500,506.0
43.20500,619.0
43.23500,627.0
43.26500,747.0
43.29500,818.0
43.32500,915.0
43.35500,1199.0
43.38500,1465.0
43.41500,1802.0
43.44500,2005.0
43.47500,2177.0
43.50500,2414.0
43.53500,2738.0
43.56500,3091.0
43.59500,3662.0
43.62500,4539.0
43.65500,5400.0
43.68500,6126.0
43.71500,6798.0
43.74500,7998.0
43.77500,9335.0
43.80500,10441.0
43.83500,10157.0
43.86500,8567.0
43.89500,6967.0
43.92500,5307.0
43.95500,3814.0
43.98500,2743.0
44.01500,1852.0
44.04500,1366.0
44.07500,956.0
44.10500,645.0
44.13500,504.0
44.16500,264.0
44.19500,228.0
44.22500,178.0
44.25500,226.0
44.28500,255.0
44.31500,380.0
44.34500,467.0
44.37500,530.0
44.40500,609.0
44.43500,510.0
44.46500,420.0
44.49500,355.0
44.52500,311.0
44.55500,353.0
44.58500,550.0
44.61500,884.0
44.64500,1471.0
44.67500,2217.0
44.70500,3085.0
44.73500,4172.0
44.76500,5108.0
44.79500,5743.0
44.82500,6273.0
44.85500,6404.0
44.88500,6328.0
44.91500,5922.0
44.94500,5220.0
44.97500,4315.0
45.00500,3432.0
45.03500,2584.0
45.06500,1884.0
45.09500,1276.0
45.12500,920.0
45.15500,694.0
45.18500,670.0
45.21500,714.0
45.24500,722.0
45.27500,729.0
45.30500,622.0
45.33500,518.0
45.36500,467.0
45.39500,335.0
45.42500,313.0
45.45500,282.0
45.48500,316.0
45.51500,486.0
45.54500,651.0
45.57500,1376.0
45.60500,2625.0
45.63500,3502.0
45.66500,6874.0
45.69500,34199.0
45.72500,815624.0
45.75500,9500.0
45.78500,2596.0
45.81500,929.0
45.84500,419.0
45.87500,230.0
45.90500,116.0
45.93500,88.0
45.96500,88.0
45.99500,99.0
46.02500,104.0
46.05500,102.0
46.08500,100.0
46.11500,82.0
46.14500,61.0
46.17500,50.0
46.20500,33.0
46.23500,36.0
46.26500,27.0
46.29500,30.0
46.32500,25.0
46.35500,30.0
46.38500,30.0
46.41500,16.0
46.44500,26.0
46.47500,19.0
46.50500,16.0
46.53500,16.0
46.56500,9.0
46.59500,10.0
46.62500,16.0
46.65500,27.0
46.68500,15.0
46.71500,30.0
46.74500,24.0
46.77500,19.0
46.80500,17.0
46.83500,18.0
46.86500,20.0
46.89500,13.0
46.92500,18.0
46.95500,9.0
46.98500,25.0
47.01500,12.0
47.04500,8.0
47.07500,15.0
47.10500,6.0
47.13500,16.0
47.16500,20.0
47.19500,17.0
47.22500,11.0
47.25500,20.0
47.28500,11.0
47.31500,16.0
47.34500,16.0
47.37500,14.0
47.40500,14.0
47.43500,11.0
47.46500,12.0
47.49500,11.0
47.52500,13.0
47.55500,14.0
47.58500,12.0
47.61500,13.0
47.64500,7.0
47.67500,14.0
47.70500,23.0
47.73500,12.0
47.76500,7.0
47.79500,18.0
47.82500,17.0
47.85500,5.0
47.88500,13.0
47.91500,14.0
47.94500,11.0
47.97500,11.0
48.00500,19.0
48.03500,11.0
48.06500,12.0
48.09500,14.0
48.12500,8.0
48.15500,7.0
48.18500,10.0
48.21500,9.0
48.24500,14.0
48.27500,16.0
48.30500,10.0
48.33500,16.0
48.36500,14.0
48.39500,21.0
48.42500,20.0
48.45500,8.0
48.48500,11.0
48.51500,10.0
48.54500,15.0
48.57500,16.0
48.60500,14.0
48.63500,3.0
48.66500,16.0
48.69500,8.0
48.72500,6.0
48.75500,14.0
48.78500,8.0
48.81500,17.0
48.84500,11.0
48.87500,16.0
48.90500,11.0
48.93500,11.0
48.96500,11.0
48.99500,10.0
49.02500,12.0
49.05500,11.0
49.08500,10.0
49.11500,19.0
49.14500,13.0
49.17500,11.0
49.20500,14.0
49.23500,11.0
49.26500,20.0
49.29500,13.0
49.32500,12.0
49.35500,15.0
49.38500,7.0
49.41500,10.0
49.44500,12.0
49.47500,8.0
49.50500,16.0
49.53500,22.0
49.56500,12.0
49.59500,15.0
49.62500,8.0
49.65500,17.0
49.68500,13.0
49.71500,8.0
49.74500,6.0
49.77500,8.0
49.80500,16.0
49.83500,12.0
49.86500,10.0
49.89500,10.0
49.92500,16.0
49.95500,14.0
49.98500,17.0
50.01500,17.0
50.04500,4.0
50.07500,9.0
50.10500,15.0
50.13500,17.0
50.16500,18.0
50.19500,18.0
50.22500,16.0
50.25500,11.0
50.28500,9.0
50.31500,15.0
50.34500,13.0
50.37500,18.0
50.40500,8.0
50.43500,5.0
50.46500,11.0
50.49500,13.0
50.52500,11.0
50.55500,14.0
50.58500,9.0
50.61500,14.0
50.64500,19.0
50.67500,10.0
50.70500,11.0
50.73500,12.0
50.76500,7.0
50.79500,11.0
50.82500,16.0
50.85500,12.0
50.88500,14.0
50.91500,20.0
50.94500,14.0
50.97500,10.0
51.00500,10.0
51.03500,6.0
51.06500,11.0
51.09500,14.0
51.12500,7.0
51.15500,14.0
51.18500,15.0
51.21500,11.0
51.24500,8.0
51.27500,13.0
51.30500,14.0
51.33500,13.0
51.36500,11.0
51.39500,10.0
51.42500,11.0
51.45500,9.0
51.48500,12.0
51.51500,10.0
51.54500,12.0
51.57500,10.0
51.60500,11.0
51.63500,12.0
51.66500,9.0
51.69500,16.0
51.72500,14.0
51.75500,13.0
51.78500,11.0
51.81500,9.0
51.84500,14.0
51.87500,21.0
51.90500,11.0
51.93500,10.0
51.96500,9.0
51.99500,9.0
52.02500,11.0
52.05500,9.0
52.08500,14.0
52.11500,7.0
52.14500,10.0
52.17500,7.0
52.20500,6.0
52.23500,9.0
52.26500,10.0
52.29500,9.0
52.32500,7.0
52.35500,12.0
52.38500,9.0
52.41500,15.0
52.44500,10.0
52.47500,10.0
52.50500,8.0
52.53500,9.0
52.56500,10.0
52.59500,12.0
52.62500,12.0
52.65500,3.0
52.68500,10.0
52.71500,14.0
52.74500,7.0
52.77500,10.0
52.80500,10.0
52.83500,7.0
52.86500,9.0
52.89500,12.0
52.92500,16.0
52.95500,19.0
52.98500,9.0
53.01500,8.0
53.04500,13.0
53.07500,12.0
53.10500,10.0
53.13500,9.0
53.16500,17.0
53.19500,11.0
53.22500,14.0
53.25500,14.0
53.28500,9.0
53.31500,20.0
53.34500,11.0
53.37500,11.0
53.40500,8.0
53.43500,14.0
53.46500,11.0
53.49500,16.0
53.52500,9.0
53.55500,14.0
53.58500,13.0
53.61500,12.0
53.64500,11.0
53.67500,10.0
53.70500,11.0
53.73500,11.0
53.76500,6.0
53.79500,11.0
53.82500,10.0
53.85500,12.0
53.88500,17.0
53.91500,11.0
53.94500,15.0
53.97500,14.0
54.00500,12.0
54.03500,14.0
54.06500,14.0
54.09500,14.0
54.12500,12.0
54.15500,9.0
54.18500,10.0
54.21500,16.0
54.24500,11.0
54.27500,15.0
54.30500,8.0
54.33500,13.0
54.36500,15.0
54.39500,13.0
54.42500,10.0
54.45500,7.0
54.48500,12.0
54.51500,9.0
54.54500,8.0
54.57500,15.0
54.60500,13.0
54.63500,9.0
54.66500,8.0
54.69500,8.0
54.72500,13.0
54.75500,5.0
54.78500,10.0
54.81500,11.0
54.84500,8.0
54.87500,9.0
54.90500,18.0
54.93500,12.0
54.96500,14.0
54.99500,7.0